# 178 angles,  1 tensor ranks for 0=projectile
@subtitle   "16O(p,p) Konig-Delaroche;"                                                     
@legend ON
@legend x1 0.2
@legend y1 0.8
@g0 type LOGY
@yaxis ticklabel format power
@xaxis label "Scattering angle (degrees)"
@yaxis label "Cross section (mb/sr)"
@legend string   0 "Partition=  1 Excit=  1 near/far= 1"
#legend string   0 "Lab energy =    7.5000"
@s0 linestyle   1
#  Theta       sigma       iT11        T20         T21         T22         Kyy for projectile
   3.000      0.3507E+07
   4.000      0.1096E+07
   5.000      0.4422E+06
   6.000      0.2095E+06
   7.000      0.1109E+06
   8.000      0.6373E+05
   9.000      0.3898E+05
   10.00      0.2508E+05
   11.00      0.1682E+05
   12.00      0.1168E+05
   13.00       8363.    
   14.00       6150.    
   15.00       4633.    
   16.00       3566.    
   17.00       2800.    
   18.00       2239.    
   19.00       1819.    
   20.00       1501.    
   21.00       1256.    
   22.00       1064.    
   23.00       911.2    
   24.00       788.3    
   25.00       688.1    
   26.00       605.4    
   27.00       536.2    
   28.00       477.7    
   29.00       427.8    
   30.00       384.6    
   31.00       347.0    
   32.00       314.0    
   33.00       284.7    
   34.00       258.6    
   35.00       235.1    
   36.00       214.0    
   37.00       194.8    
   38.00       177.3    
   39.00       161.3    
   40.00       146.7    
   41.00       133.2    
   42.00       120.9    
   43.00       109.5    
   44.00       99.01    
   45.00       89.36    
   46.00       80.47    
   47.00       72.29    
   48.00       64.77    
   49.00       57.88    
   50.00       51.57    
   51.00       45.80    
   52.00       40.56    
   53.00       35.79    
   54.00       31.49    
   55.00       27.62    
   56.00       24.15    
   57.00       21.08    
   58.00       18.36    
   59.00       15.98    
   60.00       13.92    
   61.00       12.16    
   62.00       10.68    
   63.00       9.465    
   64.00       8.489    
   65.00       7.737    
   66.00       7.193    
   67.00       6.839    
   68.00       6.659    
   69.00       6.638    
   70.00       6.760    
   71.00       7.011    
   72.00       7.376    
   73.00       7.842    
   74.00       8.396    
   75.00       9.025    
   76.00       9.718    
   77.00       10.46    
   78.00       11.25    
   79.00       12.06    
   80.00       12.90    
   81.00       13.75    
   82.00       14.60    
   83.00       15.45    
   84.00       16.28    
   85.00       17.10    
   86.00       17.89    
   87.00       18.64    
   88.00       19.37    
   89.00       20.05    
   90.00       20.68    
   91.00       21.27    
   92.00       21.80    
   93.00       22.28    
   94.00       22.70    
   95.00       23.06    
   96.00       23.37    
   97.00       23.61    
   98.00       23.79    
   99.00       23.90    
   100.0       23.96    
   101.0       23.95    
   102.0       23.89    
   103.0       23.76    
   104.0       23.58    
   105.0       23.35    
   106.0       23.06    
   107.0       22.72    
   108.0       22.33    
   109.0       21.90    
   110.0       21.42    
   111.0       20.91    
   112.0       20.36    
   113.0       19.78    
   114.0       19.17    
   115.0       18.54    
   116.0       17.88    
   117.0       17.21    
   118.0       16.52    
   119.0       15.82    
   120.0       15.12    
   121.0       14.41    
   122.0       13.71    
   123.0       13.01    
   124.0       12.32    
   125.0       11.64    
   126.0       10.97    
   127.0       10.32    
   128.0       9.694    
   129.0       9.090    
   130.0       8.511    
   131.0       7.960    
   132.0       7.440    
   133.0       6.952    
   134.0       6.498    
   135.0       6.081    
   136.0       5.700    
   137.0       5.357    
   138.0       5.054    
   139.0       4.790    
   140.0       4.566    
   141.0       4.382    
   142.0       4.238    
   143.0       4.134    
   144.0       4.069    
   145.0       4.043    
   146.0       4.054    
   147.0       4.101    
   148.0       4.183    
   149.0       4.299    
   150.0       4.446    
   151.0       4.623    
   152.0       4.828    
   153.0       5.058    
   154.0       5.312    
   155.0       5.586    
   156.0       5.879    
   157.0       6.187    
   158.0       6.508    
   159.0       6.840    
   160.0       7.179    
   161.0       7.523    
   162.0       7.869    
   163.0       8.215    
   164.0       8.558    
   165.0       8.894    
   166.0       9.223    
   167.0       9.540    
   168.0       9.845    
   169.0       10.13    
   170.0       10.40    
   171.0       10.66    
   172.0       10.89    
   173.0       11.09    
   174.0       11.28    
   175.0       11.43    
   176.0       11.56    
   177.0       11.67    
   178.0       11.74    
   179.0       11.78    
   180.0       11.80    
 END
