# 178 angles,  1 tensor ranks for 0=projectile
@subtitle   "7Li + d g.s with Daehnick OMP;"                                                
@legend ON
@legend x1 0.2
@legend y1 0.8
@g0 type LOGY
@yaxis ticklabel format power
@xaxis label "Scattering angle (degrees)"
@yaxis label "Cross section (mb/sr)"
@legend string   0 "Partition=  1 Excit=  1 near/far= 1"
#legend string   0 "Lab energy =   14.5700"
@s0 linestyle   1
#  Theta       sigma       iT11        T20         T21         T22         Kyy for projectile
   3.000      0.1708E+06
   4.000      0.5033E+05
   5.000      0.1928E+05
   6.000       8882.    
   7.000       4770.    
   8.000       2942.    
   9.000       2054.    
   10.00       1588.    
   11.00       1324.    
   12.00       1162.    
   13.00       1052.    
   14.00       970.0    
   15.00       903.1    
   16.00       844.2    
   17.00       789.7    
   18.00       737.8    
   19.00       687.4    
   20.00       638.3    
   21.00       590.3    
   22.00       543.4    
   23.00       498.0    
   24.00       454.1    
   25.00       411.9    
   26.00       371.7    
   27.00       333.5    
   28.00       297.5    
   29.00       263.8    
   30.00       232.5    
   31.00       203.4    
   32.00       176.8    
   33.00       152.5    
   34.00       130.5    
   35.00       110.7    
   36.00       93.02    
   37.00       77.37    
   38.00       63.64    
   39.00       51.69    
   40.00       41.40    
   41.00       32.63    
   42.00       25.25    
   43.00       19.13    
   44.00       14.13    
   45.00       10.13    
   46.00       6.995    
   47.00       4.619    
   48.00       2.889    
   49.00       1.703    
   50.00      0.9676    
   51.00      0.5974    
   52.00      0.5158    
   53.00      0.6543    
   54.00      0.9531    
   55.00       1.360    
   56.00       1.832    
   57.00       2.330    
   58.00       2.826    
   59.00       3.295    
   60.00       3.717    
   61.00       4.081    
   62.00       4.377    
   63.00       4.600    
   64.00       4.748    
   65.00       4.822    
   66.00       4.826    
   67.00       4.765    
   68.00       4.644    
   69.00       4.472    
   70.00       4.257    
   71.00       4.006    
   72.00       3.729    
   73.00       3.434    
   74.00       3.129    
   75.00       2.820    
   76.00       2.515    
   77.00       2.220    
   78.00       1.941    
   79.00       1.680    
   80.00       1.442    
   81.00       1.231    
   82.00       1.046    
   83.00      0.8913    
   84.00      0.7657    
   85.00      0.6696    
   86.00      0.6023    
   87.00      0.5628    
   88.00      0.5494    
   89.00      0.5603    
   90.00      0.5935    
   91.00      0.6464    
   92.00      0.7168    
   93.00      0.8021    
   94.00      0.8996    
   95.00       1.007    
   96.00       1.122    
   97.00       1.242    
   98.00       1.364    
   99.00       1.488    
   100.0       1.611    
   101.0       1.731    
   102.0       1.847    
   103.0       1.958    
   104.0       2.063    
   105.0       2.161    
   106.0       2.251    
   107.0       2.333    
   108.0       2.406    
   109.0       2.471    
   110.0       2.528    
   111.0       2.575    
   112.0       2.615    
   113.0       2.646    
   114.0       2.669    
   115.0       2.684    
   116.0       2.692    
   117.0       2.693    
   118.0       2.687    
   119.0       2.675    
   120.0       2.656    
   121.0       2.633    
   122.0       2.603    
   123.0       2.569    
   124.0       2.530    
   125.0       2.486    
   126.0       2.439    
   127.0       2.387    
   128.0       2.332    
   129.0       2.274    
   130.0       2.212    
   131.0       2.149    
   132.0       2.083    
   133.0       2.015    
   134.0       1.946    
   135.0       1.877    
   136.0       1.807    
   137.0       1.738    
   138.0       1.670    
   139.0       1.604    
   140.0       1.541    
   141.0       1.480    
   142.0       1.424    
   143.0       1.373    
   144.0       1.327    
   145.0       1.287    
   146.0       1.254    
   147.0       1.229    
   148.0       1.212    
   149.0       1.204    
   150.0       1.205    
   151.0       1.216    
   152.0       1.236    
   153.0       1.266    
   154.0       1.307    
   155.0       1.357    
   156.0       1.417    
   157.0       1.486    
   158.0       1.564    
   159.0       1.651    
   160.0       1.745    
   161.0       1.845    
   162.0       1.951    
   163.0       2.062    
   164.0       2.176    
   165.0       2.292    
   166.0       2.410    
   167.0       2.526    
   168.0       2.641    
   169.0       2.753    
   170.0       2.861    
   171.0       2.962    
   172.0       3.057    
   173.0       3.144    
   174.0       3.221    
   175.0       3.288    
   176.0       3.345    
   177.0       3.389    
   178.0       3.421    
   179.0       3.441    
   180.0       3.447    
 END
